Flex1,Flex2,Flex3,Flex4,Accelerometer_X,Accelerometer_Y,Accelerometer_Z,Gyroscope_X,Gyroscope_Y,Gyroscope_Z
0,299,289,269,-2832,-1904,14396,34,124,-287
0,299,289,274,-2772,-1904,14328,34,156,-270
0,298,289,275,-2780,-2012,14388,46,165,-273
0,299,289,276,-2936,-1948,14264,50,134,-276
0,299,289,277,-2768,-1916,14252,-27,163,-299
0,299,289,277,-2792,-1936,14356,66,225,-272
0,299,289,277,-2792,-1812,14468,-7,196,-278
0,297,289,277,-2864,-1928,14208,15,83,-289
0,299,288,277,-2740,-1992,14360,-35,186,-273
0,299,289,278,-2820,-1920,14172,-55,169,-277
0,299,289,277,-2848,-1940,14228,74,166,-269
0,298,289,277,-2792,-2024,14252,-21,80,-289
0,298,288,278,-2832,-1936,14216,13,95,-275
0,299,289,278,-2788,-1936,14324,-134,5,-326
0,299,289,278,-2740,-1992,14360,-13,164,-287
0,298,289,277,-2876,-1812,14380,-77,35,-311
0,299,289,278,-2760,-1956,14272,-38,199,-299
0,298,289,278,-2800,-1888,14308,4,147,-284
0,299,288,278,-2800,-1920,14204,14,183,-261
0,299,289,278,-2808,-1904,14428,-30,194,-284
0,299,289,278,-2752,-1984,14248,9,142,-266
0,298,289,278,-2816,-1928,14448,42,195,-278
0,298,288,278,-2824,-1884,14328,-60,60,-304
0,299,288,278,-2668,-1768,14404,32,139,-295
0,299,289,278,-2852,-1816,14316,-33,151,-295
0,298,289,278,-2752,-1864,14320,-47,160,-282
0,298,288,278,-2776,-1940,14392,3,109,-294
0,298,289,277,-2752,-1984,14256,39,145,-284
0,298,289,277,-2792,-1912,14372,12,119,-296
0,299,288,277,-2820,-1932,14316,31,163,-269
0,298,289,277,-2836,-1896,14472,8,118,-302
0,299,288,277,-2836,-1984,14368,5,133,-277
0,298,289,278,-2800,-1940,14188,7,142,-290
0,298,289,278,-2820,-2020,14420,-10,120,-284
0,298,289,277,-2792,-1892,14284,7,30,-285
0,299,289,278,-2864,-1948,14348,38,126,-277
0,298,289,277,-2792,-1760,14272,36,218,-282
0,297,289,278,-2788,-1992,14520,-27,121,-296
0,299,289,277,-2796,-2036,14384,29,153,-261
0,299,289,278,-2780,-1892,14340,39,146,-300
0,299,288,278,-2824,-1836,14340,-3,117,-304
0,298,289,277,-2828,-1888,14344,12,173,-292
0,298,289,277,-2784,-1968,14368,-25,122,-279
0,298,289,278,-2840,-1984,14292,-5,188,-294
0,299,289,277,-2776,-1924,14252,38,154,-284
0,299,289,278,-2736,-1872,14336,30,157,-264
0,299,289,278,-2768,-1944,14428,9,102,-290
0,298,288,277,-2728,-1944,14548,13,114,-278
0,298,289,277,-2868,-1900,14432,17,152,-288
0,299,289,278,-2880,-1908,14384,58,205,-270
0,299,289,278,-2788,-1824,14476,-21,176,-274
0,299,289,278,-2796,-1976,14392,41,121,-267
0,299,289,277,-2744,-1808,14328,32,164,-291
0,298,289,277,-2780,-1948,14544,62,166,-292
0,299,289,278,-2764,-1860,14364,-31,191,-296
0,298,289,277,-2840,-1980,14396,13,114,-295
0,298,289,277,-2792,-1924,14304,-9,136,-296
0,299,289,278,-2784,-1844,14216,0,163,-297
0,299,289,277,-2832,-1824,14444,14,180,-296
0,298,289,277,-2812,-1936,14360,31,131,-284
0,299,288,277,-2840,-2000,14284,-41,162,-289
0,298,288,278,-2748,-1948,14452,40,167,-277
0,299,289,278,-2884,-1888,14304,17,126,-288
0,299,289,277,-2808,-2044,14172,62,222,-292
0,299,289,278,-2728,-1920,14248,8,119,-267
0,298,289,277,-2724,-1960,14264,42,183,-297
0,299,289,277,-2780,-1988,14308,-32,131,-284
0,299,289,277,-2868,-1876,14376,47,191,-269
0,298,288,277,-2792,-1872,14268,33,166,-301
0,299,289,277,-2820,-1860,14264,-71,164,-313
0,298,289,277,-2848,-1880,14216,28,126,-282
0,299,289,277,-2788,-1900,14264,24,156,-298
0,298,289,277,-2836,-1968,14236,40,175,-286
0,298,289,277,-2832,-1944,14400,-7,197,-274
0,298,289,278,-2780,-1848,14304,42,162,-279
0,299,289,277,-2812,-1932,14288,0,152,-304
0,299,289,277,-2736,-1856,14212,-59,49,-289
0,298,289,277,-2752,-1936,14280,41,218,-295
0,298,288,278,-2792,-1976,14284,55,184,-283
0,298,288,277,-2804,-2044,14280,43,150,-266
0,298,289,278,-2820,-1876,14208,18,131,-285
0,298,289,277,-2724,-1944,14308,1,176,-308
0,299,289,278,-2772,-1856,14196,36,120,-285
0,299,289,277,-2748,-2000,14324,90,265,-270
0,299,289,277,-2816,-1868,14208,15,173,-268
0,299,288,277,-2856,-2056,14568,67,175,-282
0,298,289,277,-2792,-1924,14408,14,192,-278
0,298,289,277,-2844,-1976,14204,10,161,-265
0,298,290,277,-2764,-1864,14316,-30,102,-294
0,298,289,278,-2772,-1876,14320,7,120,-278
0,299,288,277,-2792,-1896,14252,49,237,-279
0,298,289,277,-2772,-1916,14280,16,63,-301
0,299,289,277,-2796,-1924,14264,10,189,-291
0,299,289,277,-2780,-1868,14260,2,173,-279
0,299,289,277,-2716,-1868,14004,21,197,-285
0,299,289,277,-2820,-1960,14368,57,213,-258
0,299,289,277,-2836,-1956,14444,-149,25,-289
0,299,289,277,-2876,-1848,14296,22,86,-281
0,299,289,277,-2832,-1932,14252,36,89,-252
0,299,289,277,-2788,-1944,14324,60,133,-298
0,299,289,277,-2780,-1804,14476,65,70,-276
0,298,289,278,-2932,-1764,14336,4,58,-293
0,299,289,278,-2824,-1836,14500,27,125,-285
0,299,289,277,-2792,-1916,14324,23,191,-265
0,299,289,277,-2768,-1996,14408,41,160,-294
0,298,289,277,-2804,-1944,14244,63,142,-283
0,298,290,278,-2744,-1924,14416,69,171,-293
0,298,289,278,-2756,-2068,14340,57,131,-272
0,299,289,277,-2784,-2020,14584,71,204,-272
0,298,288,277,-2764,-1896,14360,-18,178,-285
0,299,289,277,-2816,-1844,14340,-17,163,-281
0,299,289,278,-2836,-2032,14264,17,155,-295
0,298,289,277,-2724,-2024,14312,34,195,-257
0,299,289,277,-2832,-1852,14544,-15,137,-287
0,298,289,277,-2788,-1940,14212,46,119,-269
0,298,289,278,-2932,-1996,14416,69,151,-277
0,298,289,277,-2840,-1896,14340,18,165,-285
0,299,289,277,-2860,-1784,14372,13,130,-291
0,299,288,277,-2756,-1816,14492,40,177,-273
0,298,289,277,-2772,-1852,14248,2,157,-280
0,298,289,277,-2700,-1984,14340,-7,135,-280
0,298,289,277,-2844,-1908,14284,56,150,-279
0,299,289,277,-2820,-1872,14184,6,142,-283
0,299,289,277,-2924,-1908,14296,35,170,-290
0,298,289,277,-2768,-2004,14420,40,132,-292
0,299,289,278,-2792,-1912,14100,25,147,-285
0,299,289,278,-2788,-1736,14424,33,137,-270
0,299,289,277,-2924,-1832,14356,-13,148,-265
0,299,289,277,-2792,-1952,14280,8,159,-285
0,299,289,278,-2744,-2020,14320,6,173,-260
0,299,288,278,-2816,-1988,14312,33,128,-277
0,298,288,277,-2824,-1968,14192,-10,146,-285
0,299,289,277,-2736,-1884,14400,83,129,-263
0,298,289,277,-2756,-2088,14260,31,207,-244
0,299,289,277,-2736,-1928,14380,-58,189,-275
0,298,289,277,-2792,-1868,14368,46,203,-282
0,299,289,277,-2768,-1924,14208,8,170,-285
0,298,289,278,-2760,-2032,14228,13,105,-278
0,299,289,277,-2848,-1956,14336,15,135,-291
0,298,289,277,-2764,-1996,14332,30,169,-258
0,299,289,277,-2836,-2100,14316,7,140,-278
0,298,289,277,-2780,-1944,14468,23,95,-315
0,299,289,277,-2780,-1944,14324,54,170,-248
0,298,288,277,-2844,-1900,14432,17,143,-284
0,298,289,277,-2804,-1880,14384,26,118,-299
0,300,289,277,-2832,-1884,14360,-1,139,-316
0,298,289,277,-2788,-1984,14236,19,147,-295
0,299,288,278,-2684,-1892,14380,13,140,-287
0,299,288,277,-2796,-1932,14384,53,157,-275
0,299,289,277,-2832,-1904,14368,-2,178,-279
0,299,288,277,-2744,-1924,14320,-14,149,-309
0,299,289,277,-2744,-1996,14272,8,170,-268
0,299,289,277,-2708,-1904,14336,1,67,-303
0,299,289,277,-2820,-1932,14360,41,163,-289
0,299,289,277,-2744,-1920,14224,40,156,-281
0,298,289,277,-2804,-1968,14260,-9,184,-272
0,298,288,277,-2732,-1864,14492,5,182,-279
0,298,289,277,-2848,-1964,14308,97,106,-271
0,299,289,277,-2824,-1892,14160,75,144,-277
0,299,288,277,-2848,-1872,14292,5,117,-286
0,299,289,277,-2704,-1876,14384,42,186,-268
0,298,289,277,-2816,-1888,14304,12,114,-296
0,299,289,277,-2716,-1964,14172,-30,177,-288
0,299,289,277,-2668,-1984,14356,22,182,-266
0,298,289,278,-2840,-1912,14220,35,197,-277
0,298,289,277,-2836,-1928,14228,-29,114,-287
0,299,289,277,-2792,-1932,14304,68,237,-265
0,299,289,277,-2772,-1904,14504,-7,119,-280
0,298,289,277,-2804,-1904,14348,79,144,-272
0,299,289,277,-2852,-1900,14408,-28,106,-275
0,298,288,277,-2748,-1904,14472,22,136,-298
0,299,289,277,-2796,-1860,14296,5,164,-282
0,299,289,277,-2788,-1892,14344,-12,155,-283
0,298,289,276,-2724,-2000,14152,4,239,-283
0,299,289,277,-2728,-1928,14364,-35,170,-280
0,298,289,277,-2892,-1984,14376,74,138,-275
0,298,288,277,-2780,-1980,14364,14,27,-291
0,299,289,277,-2868,-1888,14432,1,143,-265
0,298,289,277,-2736,-1896,14396,9,166,-260
0,298,289,277,-2816,-1896,14268,-15,149,-284
0,298,289,277,-2764,-1904,14344,16,141,-273
0,299,288,278,-2876,-1792,14200,22,106,-283
0,298,289,277,-2868,-1876,14488,12,129,-278
0,299,289,277,-2724,-1928,14432,75,184,-268
0,299,289,277,-2828,-1928,14292,68,90,-281
0,299,289,277,-2792,-1980,14328,-6,202,-293
0,298,289,277,-2808,-1844,14508,-5,142,-268
0,298,288,277,-2840,-1928,14344,30,51,-321
0,299,289,277,-2780,-1764,14284,11,71,-292
0,299,289,278,-2768,-1840,14452,8,125,-255
0,299,289,277,-2768,-1884,14384,-18,120,-298
0,299,289,277,-2796,-1872,14284,63,201,-269
0,298,289,277,-2848,-1892,14328,14,158,-292
0,299,288,277,-2768,-1964,14288,44,172,-295
0,298,288,277,-2808,-1844,14508,6,162,-274
0,299,289,277,-2796,-1976,14448,108,213,-286
0,299,288,277,-2788,-1840,14308,-69,60,-292
0,298,289,277,-2800,-1860,14376,-24,183,-264
0,299,288,277,-2852,-1956,14280,-3,138,-309
0,299,289,277,-2760,-2012,14452,-1,171,-300
0,299,288,277,-2740,-1840,14252,14,233,-284
0,298,289,277,-2772,-2004,14368,-15,162,-291
0,299,289,277,-2812,-1820,14324,50,70,-273
0,299,289,278,-2784,-2008,14364,68,127,-290
0,299,289,277,-2812,-1956,14448,33,135,-283
0,298,289,277,-2888,-1972,14320,35,273,-254
0,298,289,277,-2732,-1888,14360,-12,146,-286
0,299,289,277,-2724,-1904,14432,12,189,-289
0,299,289,277,-2768,-1956,14264,3,106,-314
0,299,288,277,-2796,-1940,14264,36,157,-263
0,299,289,277,-2768,-2016,14332,36,160,-275
0,299,289,277,-2836,-1884,14200,-6,200,-282
0,299,289,277,-2800,-2024,14388,-35,79,-293
0,299,289,277,-2840,-1968,14284,42,145,-309
0,298,289,277,-2916,-1952,14352,59,126,-300
0,298,289,277,-2784,-1888,14324,-26,2,-276
0,298,289,277,-2776,-1808,14416,-18,131,-295
0,298,289,277,-2900,-1920,14260,5,189,-297
0,299,289,277,-2796,-1952,14380,-9,147,-292
0,298,289,277,-2720,-1980,14276,57,153,-279
0,299,288,277,-2736,-1832,14464,-2,54,-294
0,298,289,277,-2752,-1972,14260,34,167,-280
0,299,289,277,-2812,-1912,14260,35,184,-261
0,298,289,277,-2892,-1888,14400,-30,132,-287
0,298,289,277,-2748,-1912,14376,10,124,-302
0,298,289,277,-2804,-1920,14384,9,35,-291
0,299,289,277,-2836,-1972,14348,-30,85,-276
0,299,289,277,-2772,-2080,14260,-41,127,-265
0,299,289,277,-2668,-1920,14192,82,171,-289
0,298,289,277,-2812,-1932,14272,51,143,-275
0,299,289,277,-2724,-1932,14172,18,151,-260
0,299,289,277,-2804,-1884,14344,-1,197,-297
0,299,288,277,-2696,-1888,14356,61,136,-280
0,298,289,277,-2876,-1916,14324,34,99,-299
0,298,289,278,-2704,-1880,14268,-5,171,-286
0,298,289,277,-2800,-1856,14364,1,134,-287
0,298,289,277,-2756,-1904,14180,24,100,-291
0,300,289,277,-2796,-1980,14400,4,203,-285
0,299,289,277,-2824,-1888,14268,29,178,-269
0,298,289,277,-2772,-1928,14204,56,136,-273
0,299,288,277,-2744,-1992,14472,65,160,-272
0,298,289,277,-2836,-1872,14524,-9,155,-303
0,299,290,277,-2844,-1912,14236,28,165,-291
0,299,289,277,-2776,-1888,14248,24,151,-290
0,299,288,277,-2816,-1832,14476,49,124,-286
0,298,289,277,-2768,-1940,14364,-39,162,-269
0,298,289,277,-2792,-1844,14368,-7,142,-293
0,298,289,277,-2820,-2000,14268,40,156,-286
0,299,289,277,-2884,-1864,14220,-13,125,-303
0,299,288,277,-2752,-1948,14292,35,171,-271
0,298,289,277,-2764,-2032,14192,11,73,-290
0,298,289,277,-2884,-1956,14460,14,143,-272
0,299,289,277,-2804,-1916,14364,19,130,-272
0,298,289,277,-2792,-1860,14344,17,140,-279
0,299,289,277,-2908,-1880,14296,9,150,-277
0,299,288,277,-2660,-1996,14356,43,165,-284
0,299,289,277,-2864,-1924,14328,6,123,-301
0,299,289,278,-2724,-1936,14152,18,150,-279
0,299,289,277,-2764,-1956,14332,50,128,-274
0,299,289,277,-2884,-1892,14288,10,190,-290
0,299,289,277,-2748,-1884,14336,58,116,-285
0,299,289,277,-2724,-1844,14460,16,158,-271
0,299,289,277,-2664,-1816,14500,-36,75,-309
0,299,289,277,-2812,-1968,14180,-78,97,-273
0,299,289,277,-2668,-1868,14348,31,140,-299
0,298,288,277,-2800,-2016,14276,6,131,-265
0,298,289,277,-2728,-2052,14264,16,147,-284
0,299,289,277,-2796,-1964,14264,-23,35,-313
0,298,289,277,-2804,-1916,14128,-14,104,-264
0,299,289,277,-2836,-1868,14252,37,58,-282
0,299,289,277,-2796,-1916,14344,-21,135,-283
0,298,289,277,-2720,-1876,14308,26,167,-282
0,298,289,277,-2760,-1884,14308,-39,163,-282
0,298,289,277,-2824,-1928,14316,43,140,-288
0,299,289,277,-2860,-1952,14348,66,124,-283
0,298,289,277,-2816,-1936,14280,-14,148,-297
0,298,289,277,-2720,-1844,14296,45,136,-293
0,299,289,277,-2752,-2048,14340,-23,209,-280
0,299,289,277,-2916,-1948,14384,14,134,-267
0,298,289,277,-2796,-1916,14276,5,161,-272
0,298,289,277,-2820,-1876,14096,7,265,-302
0,299,289,277,-2868,-1852,14428,12,141,-277
0,299,289,277,-2772,-2004,14128,32,136,-289
0,299,289,277,-2868,-2016,14248,-11,147,-256
0,299,289,277,-2748,-1940,14232,14,172,-302
0,299,289,277,-2692,-1956,14296,17,152,-266
0,299,289,277,-2816,-2064,14356,37,108,-295
0,298,289,277,-2804,-1840,14364,35,65,-302
0,299,289,277,-2740,-1920,14252,27,186,-285
0,299,288,277,-2868,-1872,14368,9,69,-305
0,299,288,277,-2764,-1844,14396,46,210,-289
0,298,289,277,-2828,-1916,14240,-33,160,-287
0,299,289,277,-2748,-2092,14244,4,220,-290
0,299,289,277,-2844,-1920,14488,13,139,-299
0,299,289,277,-2900,-1992,14364,-37,121,-284
0,299,288,277,-2916,-1952,14528,12,10,-278
0,298,289,277,-2788,-1972,14268,-14,144,-263
0,298,289,277,-2716,-1932,14348,2,212,-283
0,299,289,277,-2752,-1816,14360,18,116,-276
0,298,289,277,-2780,-1840,14340,8,136,-284
0,298,289,277,-2796,-1880,14248,87,166,-285
0,298,289,277,-2684,-1920,14308,-26,147,-297
0,299,289,277,-2784,-1916,14460,26,154,-270
0,299,289,277,-2796,-2028,14264,26,125,-283
0,299,288,277,-2868,-1984,14152,-2,159,-282
0,299,289,277,-2844,-1928,14404,53,164,-274
0,298,289,277,-2716,-1980,14280,1,142,-303
0,298,289,277,-2900,-1932,14336,59,80,-265
0,299,289,277,-2852,-1936,14460,-45,27,-286
0,299,289,277,-2796,-1892,14368,42,141,-285
0,298,289,277,-2836,-1900,14332,-6,166,-282
0,299,289,277,-2824,-1892,14184,0,106,-294
0,298,289,277,-2828,-1884,14164,-13,167,-294
0,298,289,277,-2888,-1856,14316,3,148,-289
0,299,288,277,-2844,-1928,14420,27,133,-300
0,299,288,276,-2936,-3448,14136,-120,-297,-240
86,298,289,277,-2984,-220,15424,3858,-1323,1692
305,299,289,278,-2736,556,13868,-3237,995,34
0,299,289,277,-4648,-1340,13992,-1565,2312,-678
306,298,289,278,-4076,-1524,14176,1604,628,-73
306,298,288,278,-5368,-1048,13652,-3452,-1198,-1830
300,299,289,278,-5684,-1772,12860,1517,2050,812
304,299,289,278,-4932,-1656,13440,2143,361,57
304,298,289,278,-5164,-1364,13784,271,-780,-90
303,299,289,277,-4996,-1260,14000,-627,-98,-399
304,299,289,278,-4568,636,14500,7888,-4811,2340
303,299,289,277,-3776,1856,11776,-709,88,-4087
301,299,288,278,-3796,1116,15908,1396,1026,199
275,298,289,277,-4324,-312,14984,-1849,3245,-243
0,298,289,277,-4912,580,13892,561,-1358,-282
305,298,289,277,-4448,1568,13804,-664,-352,-5
289,299,289,278,-4452,1644,13420,1197,411,180
304,299,290,278,-4408,2004,12864,-992,-991,-375
304,298,289,278,-4988,2692,13792,47,982,-28
305,299,289,278,-4900,2440,13396,-533,1438,-936
305,300,289,278,-5784,2252,12768,302,-14,82
304,298,289,277,-5512,2628,13340,-221,623,-105
282,299,289,278,-4740,1888,13236,-1428,-211,34
305,299,289,277,-5304,1936,13492,-741,2038,-478
305,299,289,277,-5100,1672,13628,-401,-8,-638
304,299,289,278,-4980,1492,13448,175,631,-173
304,299,289,278,-5200,1580,13448,-150,-9,-493
304,300,289,278,-4668,1300,13404,470,-96,-98
304,299,289,277,-4792,1692,13348,433,-698,-217
304,299,288,278,-4316,1792,14340,93,-332,-341
0,299,288,276,-4516,1452,13584,-22,30,-197
0,299,289,277,-4888,1248,13664,-2103,2835,-1925
299,299,289,277,-5300,1436,12744,758,-3496,-286
306,299,289,278,-4132,352,12628,-1746,-3631,-703
306,299,289,278,-2304,-44,11772,-1582,7806,2141
303,299,288,277,-2356,820,12592,2580,2180,1109
0,297,289,276,-6264,360,24656,-8827,-6954,-2035
0,298,288,276,-2920,-1352,14092,-908,-78,-389
0,298,289,277,-2904,-1516,14308,108,182,-326
0,297,288,277,-3112,-1076,14092,479,-46,-223
0,298,288,277,-2876,-1568,14384,-281,-173,-345
0,297,289,277,-2696,-1716,14464,-1201,-1159,-731
0,297,289,278,-2320,-1968,12328,-2745,-5740,-1773
124,297,288,276,1796,-3332,15824,-1049,-6099,-4397
104,298,288,277,-2780,-6644,12628,-9056,-2251,-1665
115,298,288,276,1188,-7576,11248,350,-3990,483
98,296,288,276,5808,-9304,9212,-12301,-406,-3373
134,297,287,276,7264,-12412,9864,-2997,3746,-367
117,297,288,276,7296,-9596,6664,1819,-3938,-557
0,297,288,276,8412,-11396,12424,7997,-12750,166
215,297,288,276,6340,-11708,14576,-4142,6566,-950
0,295,287,276,1704,-13292,6220,2930,-433,1114
0,294,287,275,4364,-10000,10864,19371,3766,10852
0,296,288,278,4684,-7108,9436,15830,21493,11798
0,297,288,277,2032,-6688,8952,3111,6700,3981
145,297,288,277,4304,-6384,9296,-15470,10390,-17907
162,297,288,277,5792,-12848,7928,5711,7092,6323
171,297,288,277,1748,-9448,16332,-1413,-59,1754
168,298,288,277,5068,-15428,5972,3072,-9180,-41
0,297,288,276,3808,-3184,11016,1561,10170,-4447
158,297,288,277,12844,-9172,16116,-5041,1556,-90
0,297,288,277,8724,-4160,12028,8226,315,6697
0,297,289,277,3540,-3184,13692,5511,4098,5108
181,298,288,276,1976,56,13584,-545,-3135,1351
184,298,288,277,4436,-3860,19812,1981,5174,1979
172,299,289,275,-3372,3088,8872,8863,-3755,-6242
0,298,288,275,-1496,-1096,14372,-3979,1352,-1700
0,298,288,277,-1956,-1820,14220,-852,-1565,-1551
0,299,289,276,-2292,-2752,13568,-2631,1099,-746
0,299,289,277,-1096,-5772,14412,-350,2888,967
0,299,288,277,-3820,-2452,15588,-7930,-1574,-3642
0,300,288,276,-924,-3000,4752,-3589,-9060,1101
0,299,288,277,-1108,-5600,11892,-836,-1172,-501
145,299,289,277,-732,-6216,13664,577,-464,-268
140,300,288,278,-728,-6248,13712,286,-39,-297
139,299,291,277,-648,-6152,13748,-55,105,-271
136,299,289,277,-744,-6404,13768,77,151,-260
130,300,289,277,-580,-6648,14596,42,176,54
137,299,289,277,-1284,-4824,13916,1788,946,289
141,299,288,277,-2128,-4216,13080,365,569,-291
129,300,289,277,-2336,-4880,13692,-1173,-898,-661
0,300,288,277,-1540,-4424,13188,1737,613,247
0,299,288,277,-1852,-4524,13940,459,392,259
0,300,289,276,-1772,-4624,14560,-61,120,-375
0,299,289,276,-1604,-4692,14064,649,24,-397
0,299,288,276,-1676,-4768,14084,-638,345,-440
0,299,288,277,-1412,-4068,13792,32,691,-2476
0,299,289,276,-1220,-5236,14572,-214,-320,-363
0,300,289,277,-1320,-4824,14408,-226,-539,-474
0,299,289,276,-1988,-3352,14028,2144,52,219
0,298,288,277,-2640,-3084,13972,1222,368,193
0,299,289,276,-2260,-3052,13804,438,1355,-471
0,300,288,277,-1832,-3956,13812,-143,-1313,534
0,299,288,277,-1708,-2560,15092,-1675,432,-434
0,300,288,277,-1624,-4360,13888,427,1103,-635
0,300,289,277,-1328,-4024,14400,7,-34,-631
0,300,289,277,-1468,-3808,14240,421,182,-119
0,299,288,278,-1148,-4236,13988,-102,106,-693
0,299,289,278,-1204,-4536,14192,470,818,-111
0,299,288,277,-1152,-4076,14540,336,-404,-209
0,300,290,277,-1144,-4104,14484,253,360,-551
0,300,289,277,-1232,-4732,14292,159,661,-3
0,299,289,277,-1504,-4304,14120,952,775,100
0,300,289,277,-1188,-4804,14320,2710,146,693
0,300,288,276,-1608,-3288,13736,1220,598,360
0,299,288,277,-1416,-3756,13932,510,-784,-75
0,300,288,277,-1496,-3316,14408,367,1318,-644
0,299,288,277,-1396,-3804,14616,174,-126,-233
0,299,289,277,-1408,-3624,14472,561,157,-503
0,299,289,276,-856,-3780,14536,91,662,-482
0,299,288,277,-1040,-3660,14648,-449,-10,-613
0,299,289,277,-1216,-3608,14004,289,504,-165
0,299,289,277,-1116,-3980,14284,549,482,50
0,299,288,277,-1324,-3532,14164,-113,101,-349
0,300,289,277,-1312,-4028,14612,-243,357,-622
0,299,289,276,-1160,-3860,14680,-529,338,-418
0,300,289,277,-1452,-4000,13816,-1572,-77,-759
0,299,288,276,-1504,-3128,14308,632,424,-173
0,300,288,276,-1468,-3904,14560,-269,53,-354
0,302,288,277,-1284,-3776,14560,-509,-29,-822
0,300,289,277,-1332,-3860,14188,33,36,-232
0,300,289,276,-1420,-3668,14356,-388,107,-445
0,300,289,277,-1348,-3752,14436,218,-22,-199
0,299,288,277,-1424,-3812,14272,422,407,-247
0,299,288,277,-1236,-3740,14080,-49,-345,-482
0,300,289,277,-1320,-3764,14420,-391,351,-431
0,299,288,277,-1340,-3388,14672,-391,470,-549
0,300,289,277,-1712,-3336,14060,-121,-21,-671
0,300,288,277,-1432,-3688,14488,245,16,-460
0,300,288,277,-1400,-3876,14584,4,148,-420
0,299,289,276,-1444,-3548,14364,453,18,-310
0,300,288,277,-1300,-3428,14076,105,-132,-376
0,300,288,276,-1240,-3624,14864,-183,988,-791
0,300,289,277,-1176,-3640,14656,-1763,-307,-1157
0,300,289,277,-1036,-3704,14420,253,161,-300
0,300,288,277,-1120,-3764,14556,-95,33,-331
0,299,288,276,-1100,-3836,14520,629,610,-192
0,298,288,276,-1116,-3908,14608,-172,178,-356
0,300,289,277,-1060,-3744,14356,378,518,-306
0,300,288,276,-984,-3844,14536,-350,212,-393
0,299,288,277,-1244,-3728,14268,362,317,-121
0,300,289,277,-1156,-3700,14304,232,157,-103
0,300,289,276,-1108,-3816,14304,59,45,-228
0,300,288,277,-1104,-3552,14476,-131,193,-354
0,300,289,277,-1264,-3952,14112,548,343,-115
0,300,289,277,-1032,-4020,14316,-103,3,-408
0,299,290,277,-1004,-3600,14136,53,53,-293
0,299,288,277,-1188,-3528,14312,-66,128,-292
0,299,286,277,-1136,-3776,14316,187,-10,-200
0,300,289,277,-1140,-3780,14328,-54,148,-418
0,299,288,277,-1116,-4072,14112,198,88,-362
0,299,288,277,-1100,-3792,14336,-155,124,-349
0,300,288,277,-856,-3600,14180,-235,0,-350
0,300,288,277,-1128,-4160,14460,-1219,54,-785
0,299,288,276,-1244,-3940,14128,-257,183,-332
0,300,288,277,-1196,-3828,14252,327,178,-318
0,299,289,277,-1068,-3904,14436,-122,35,-248
0,300,289,277,-1180,-2984,15184,413,600,-616
0,300,289,276,-1176,-4732,14348,-115,-165,-146
0,301,289,275,-1128,-3752,14368,-185,-161,-483
0,299,287,276,-1132,-3980,14176,117,42,-163
0,300,289,277,-1032,-3924,14120,-155,172,-320
0,301,288,277,-1100,-4132,14008,17,290,-278
0,300,288,276,-1220,-3888,14284,394,119,-124
0,300,288,276,-1108,-4220,14240,-28,81,-230
0,300,288,276,-1164,-3932,14024,-106,67,-371
0,300,289,276,-1084,-3856,14048,298,238,-175
0,300,288,276,-1048,-4132,14544,143,479,-220
0,300,289,277,-924,-4160,14164,-107,283,-365
0,300,288,277,-1016,-3996,14028,-377,-300,-316
0,300,289,277,-1056,-4032,14084,563,272,-254
0,300,289,276,-860,-3996,14020,53,143,-157
0,300,288,277,-948,-4052,14200,121,409,-517
0,300,289,277,-1064,-4012,14308,-126,89,-86
0,300,288,277,-968,-3956,15060,-162,-124,439
0,300,289,277,-1412,-3628,13944,-1030,450,-862
0,300,289,277,-1136,-4580,14396,38,-482,-36
0,299,288,278,-1144,-3624,14028,475,622,-343
0,300,288,277,-1200,-4012,14144,417,602,-223
0,300,289,277,-996,-3432,14616,219,-268,283
0,299,289,277,-1048,-3820,14288,74,115,-67
0,300,289,277,-824,-3216,13500,1006,3274,-3890
0,300,289,277,-836,-4640,14588,-650,-351,-458
0,300,289,277,-540,-3952,14340,337,82,-211
0,300,288,277,-1004,-4088,13872,188,846,-263
0,300,288,277,-1072,-4664,14428,-432,193,-482
0,300,288,277,-772,-4536,14384,439,450,-207
0,300,289,277,-1164,-4076,14284,339,-18,-265
0,299,289,277,-840,-4304,14396,146,137,-206
0,299,288,277,-1060,-5284,14964,-1649,40,-1183
0,300,289,277,-1152,-3720,14376,-259,-204,-261
0,300,289,276,-1020,-4392,14292,434,436,-225
0,300,289,277,-948,-4120,14068,-49,-31,-343
0,300,289,277,-776,-4056,14168,-260,2,-411
0,300,288,277,-720,-4304,13964,14,43,-209
0,300,288,277,-856,-4240,14200,-175,128,-300
0,301,288,277,-748,-4288,14148,278,177,-120
0,300,288,278,-676,-4304,14396,492,0,-148
0,300,289,277,-688,-4296,14392,-274,85,-288
0,300,288,277,-908,-4140,14084,15,178,73
0,299,288,277,-832,-4076,14204,-81,300,-513
0,300,288,277,-856,-4236,14248,13,-131,-273
0,300,289,277,-932,-4352,13952,62,593,-293
0,300,289,277,-872,-4592,14604,-367,88,267
130,301,288,277,-788,-4380,14380,21,-82,-403
132,300,289,277,-792,-4088,14512,-79,412,-98
124,300,288,277,-1180,-4092,14400,230,462,-460
125,300,288,277,-684,-4112,14108,738,364,-789
125,300,288,276,-948,-4172,14016,-406,-12,-622
123,299,289,277,-920,-4152,14276,-244,-160,-343
123,299,288,277,-736,-4104,14276,-309,327,-417
128,300,288,277,-964,-4100,14144,472,130,-149
120,299,288,277,-712,-4308,14732,-162,235,-336
146,299,288,277,-864,-3912,14120,-184,204,-395
138,300,289,277,-924,-4272,14296,125,-13,-38
126,299,289,277,-948,-4176,14224,-315,-255,-525
142,300,288,277,-1236,-3716,13868,2825,1750,1303
126,299,290,277,-824,-4840,14560,314,-39,-379
133,300,289,277,-1016,-3284,13752,-790,-68,-861
122,300,290,277,-932,-3744,14204,265,329,-15
128,300,288,277,-796,-4020,14280,-192,303,-390
112,300,288,277,-988,-4196,14356,414,461,-296
117,300,288,277,-1028,-4640,14440,-1297,-1028,-1019
80,299,288,277,-1336,-4396,13792,-361,825,-378
157,300,289,277,-1072,-4352,14012,231,214,-208
146,300,289,276,-1120,-4236,14640,-177,-121,-232
140,300,289,276,-944,-4344,14300,-305,-10,-509
139,301,288,277,-896,-4172,14416,89,251,-331
144,299,289,277,-1200,-4280,13928,4,-449,-448
141,299,288,277,-1112,-4036,13952,182,134,-242
133,299,288,277,-1032,-4092,14288,376,143,-75
131,300,288,277,-1180,-4132,13928,-43,52,-219
122,300,289,277,-1208,-4324,13964,-165,130,-355
128,300,289,277,-1220,-4056,14516,786,292,-291
126,300,287,276,-1020,-4276,14224,-772,-304,-673
119,300,288,277,-984,-4332,14740,252,160,-101
121,300,288,277,-996,-4744,14288,436,365,-109
121,300,288,277,-1096,-4232,14116,-200,159,-580
122,301,288,277,-1160,-4228,14020,-158,370,-312
111,300,288,277,-1016,-4420,13984,8,200,-204
113,299,288,276,-996,-4256,14164,-249,6,-374
116,300,288,276,-952,-4236,13956,-287,28,-335
117,300,288,277,-1004,-4372,14220,188,279,-234
121,300,288,277,-972,-4364,14276,-125,9,-400
119,300,288,277,-1140,-4480,14544,-60,-218,-177
120,300,288,276,-976,-4324,14008,103,263,-234
122,301,288,277,-972,-4412,14228,-39,-16,-310
115,300,288,277,-1108,-4308,14072,274,254,-316
115,300,289,277,-1100,-4312,14204,224,209,-161
116,300,289,277,-1048,-4584,14260,-106,289,-350
119,300,288,277,-1084,-4332,14192,131,59,-251
115,300,289,277,-1104,-4308,14104,-109,144,-333
114,300,288,276,-1064,-4344,14132,-312,-75,-299
114,300,287,276,-908,-4192,14200,107,123,-187
109,300,289,276,-980,-4480,14128,-158,270,-387
109,300,289,276,-1136,-4312,14248,382,488,-247
110,299,288,276,-1088,-4212,14256,55,-424,-31
111,300,289,277,-1076,-4196,14072,58,-26,-352
101,300,288,277,-1056,-4188,14448,113,343,-292
115,300,289,277,-972,-4336,13880,80,129,-203
122,299,288,277,-964,-3964,14608,365,324,-147
112,300,288,277,-956,-4248,14404,119,263,-325
117,300,288,277,-952,-4188,14452,275,302,-191
113,300,288,277,-984,-4184,14048,253,465,-374
120,300,288,277,-980,-4076,14464,241,58,-92
105,300,288,277,-920,-4132,14088,24,245,-382
98,300,288,277,-1108,-4160,14224,-29,156,-267
97,300,288,277,-992,-4060,14212,165,227,-195
115,300,288,277,-1056,-4328,14084,-30,114,-167
112,301,288,278,-1000,-4420,14488,-231,63,-465
119,300,288,277,-952,-4072,14332,-78,245,-374
109,300,288,277,-1020,-4172,13948,-67,45,-352
106,301,289,276,-1172,-3872,14148,603,208,-107
119,300,288,276,-1008,-4256,14336,-74,20,-205
112,300,289,276,-1088,-4220,14444,1003,298,22
116,299,288,277,-928,-4328,14320,114,120,-196
109,300,289,277,-932,-4316,14344,294,29,-140
115,300,288,276,-1012,-4104,14252,189,-104,-102
102,299,289,276,-900,-4236,14116,493,-95,-192
96,299,288,276,-576,-4108,14276,406,-7,-57
130,300,288,276,-944,-4296,14652,-266,142,-234
137,300,288,277,-408,-4184,13992,225,131,-123
119,300,289,277,-780,-3936,14604,-261,-24,-449
115,300,288,276,-864,-4144,14204,314,231,-354
116,300,288,276,-1216,-4440,14408,64,-87,-36
153,300,288,278,-616,-3844,13928,1466,776,-747
165,300,289,277,-840,-3140,14012,184,90,-438
159,300,289,277,-508,-3020,14912,1365,280,17
0,300,289,277,-368,-2732,14812,859,-562,-265
0,300,288,276,-420,-2920,14284,-431,-926,-375
0,299,288,276,-292,-3128,14396,721,77,-171
0,300,288,276,-324,-3260,14576,-144,42,-501
0,300,288,276,-208,-3316,14596,212,395,-304
0,300,288,276,-296,-3140,14464,-112,-279,-479
0,300,289,276,-104,-3004,14444,30,-152,-334
0,300,288,276,-184,-2976,14820,479,367,-238
0,300,288,276,-252,-3140,14608,1105,464,110
0,301,289,276,28,-3600,14856,227,665,-119
0,300,289,276,-396,-2384,14432,-477,-152,-619
0,300,288,277,-244,-2612,14436,119,-209,-158
0,300,288,277,76,-3004,14652,-782,-191,-594
0,300,288,276,-400,-2800,14732,-176,174,-334
0,300,288,276,-196,-3268,14584,-83,205,-320
0,300,288,277,-152,-2932,14336,307,6,-266
0,300,289,277,-124,-3180,14384,-153,-78,-318
0,298,290,276,-152,-3000,14620,7,43,-367
0,300,288,276,64,-3008,14480,-241,155,-411
0,300,289,277,-144,-3032,14476,936,508,-8
0,300,289,277,-72,-3116,14492,395,319,-34
0,300,289,277,-152,-2944,14584,352,601,-298
0,300,289,276,-12,-3228,14684,-275,156,-510
0,300,288,277,-68,-2908,14776,196,361,-255
0,300,288,277,-376,-2864,14504,-677,54,-541
0,300,288,277,-128,-3048,14248,444,255,-412
0,300,288,277,-184,-2920,14756,398,344,43
0,300,288,276,144,-3316,14784,250,358,-225
0,300,288,277,-40,-3424,14612,9,284,-345
0,300,289,276,-60,-3116,14340,179,252,-367
0,299,289,277,-144,-2928,14420,195,-11,-191
0,300,288,277,-64,-2944,14364,31,36,-277
0,300,289,277,48,-3044,14540,579,203,-81
0,300,288,277,68,-2896,14452,-410,-73,-397
0,300,288,277,28,-3184,14592,-265,207,-362
0,300,288,277,-52,-3224,14348,-436,-55,-385
0,300,288,278,-248,-3200,14432,581,198,-14
0,300,289,277,-136,-2908,14960,-179,333,-363
0,300,288,277,-200,-3844,14308,-421,968,96
0,300,289,276,-704,-4096,14132,-831,-47,33
0,300,288,277,-276,-4144,14332,-264,-27,-123
302,300,289,277,-316,-3836,13808,1320,437,-753
310,299,288,278,-496,-4496,14252,-750,1204,-404
309,299,288,277,-580,-4104,13640,-532,346,-226
307,299,288,277,-804,-4308,14488,-705,698,-648
305,300,288,277,-832,-4116,14572,-31,121,-353
305,299,288,277,-876,-4580,14352,-66,56,-334
306,300,288,277,-896,-4072,13892,49,28,-303
309,299,289,277,-832,-4176,14132,-26,256,-326
295,300,289,277,-612,-4280,14432,238,257,-245
304,299,288,277,-868,-4008,14208,31,357,-398
306,299,288,277,-824,-4600,14568,-249,281,-288
306,300,288,277,-840,-4180,14028,61,50,-338
309,299,289,277,-780,-4456,14272,-238,36,-299
306,300,288,277,-920,-4508,14560,-86,197,-255
304,300,288,277,-868,-4428,14248,318,46,-140
306,299,288,277,-756,-4316,14180,137,290,-227
305,299,289,277,-868,-4540,14456,14,246,-375
307,300,288,277,-768,-4736,14632,180,356,-207
310,300,289,277,-712,-4600,14568,10,168,-310
308,300,289,277,-636,-4452,14588,-819,-413,-550
292,298,288,277,-580,-4868,13896,-1727,-35,-801
301,300,289,277,-336,-5756,13796,-2678,-71,-780
301,300,288,277,-416,-6520,13468,-2144,723,-340
301,300,288,277,-856,-6232,12996,-1170,-1491,-1728
301,300,289,278,1032,-7220,12784,-649,-2483,-3003
302,301,288,277,1072,-6400,12992,-1234,1123,-1472
102,301,289,277,512,-7772,14284,692,-742,-3062
122,298,288,277,-484,-7412,12820,800,-1094,-2248
203,298,288,276,1868,-2456,11960,3163,11987,201
289,298,289,277,-2348,-3384,14328,-540,42,-322
291,298,289,277,-2740,-3128,14060,124,168,-280
291,298,288,277,-2692,-3124,14336,19,153,-285
290,298,288,277,-2620,-3088,14292,27,122,-264
291,298,289,277,-2548,-3124,14268,30,85,-288
